File: XRD_data.ASC
10 0 31.4038
10.06 0 34.5792
10.12 12.6779 35.1917
10.18 21.36 32.7967
10.24 -0.212206 31.0566
10.3 0 30.4769
10.36 0 33.6496
10.42 0 30.3397
10.48 0 35.6807
10.54 0 30.2185
10.6 10.1006 31.4901
10.66 6.34688 31.5854
10.72 0 30.0191
10.78 0 30.0579
10.84 0 29.3394
10.9 15.5174 33.941
10.96 0 29.2482
11.02 0 29.3562
11.08 0 29.2082
11.14 0 29.4694
11.2 -1.7277 29.6105
11.26 0 28.585
11.32 0 29.282
11.38 8.11644 33.5407
11.44 3.677 30.5641
11.5 -1.4291 34.6203
11.56 0 28.5438
11.62 0 28.8631
11.68 0 28.5028
11.74 0 27.834
11.8 0 28.3561
11.86 0 27.9892
11.92 0 28.4557
11.98 2.38874 32.1289
12.04 1.19625 29.1671
12.1 7.86318 30.6326
12.16 9.11187 28.4877
12.22 43.7557 29.0713
12.28 15.1262 28.8496
12.34 0 27.6591
12.4 0 27.1775
12.46 22.1389 31.3081
12.52 34.273 30.4425
12.58 0 27.539
12.64 14.3845 33.1947
12.7 0 27.2687
12.76 0.664947 28.1266
12.82 16.4047 27.7808
12.88 7.03814 32.4897
12.94 0 26.9249
13 52.6265 28.2764
13.06 34.8923 29.4092
13.12 4.93339 28.5694
13.18 0 30.9916
13.24 0 26.8312
13.3 2.73612 29.1724
13.36 53.9244 28.3806
13.42 56.2461 31.7023
13.48 43.6469 31.8878
13.54 88.7754 32.3768
13.6 47.9701 32.6118
13.66 24.4563 32.5018
13.72 4.96286 33.2056
13.78 45.8181 34.8333
13.84 48.1104 35.6458
13.9 78.4326 35.1368
13.96 119.969 36.7843
14.02 107.072 35.2625
14.08 117.95 35.3548
14.14 69.2253 35.5877
14.2 108.42 36.4972
14.26 99.9894 36.2039
14.32 96.9785 34.9538
14.38 84.9657 36.0036
14.44 65.4957 36.2687
14.5 107.555 35.2438
14.56 93.6594 34.0909
14.62 69.7437 34.9071
14.68 105.125 34.1259
14.74 109.346 33.5169
14.8 66.447 32.8454
14.86 72.5262 34.18
14.92 77.3616 32.8171
14.98 32.2729 31.5225
15.04 64.3805 32.6798
15.1 43.3805 32.5034
15.16 37.6346 32.3603
15.22 19.7105 30.5914
15.28 62.5884 31.5437
15.34 37.3359 30.2989
15.4 21.713 29.8046
15.46 36.4887 29.1685
15.52 0.471755 27.4782
15.58 0 28.2196
15.64 17.0169 28.3853
15.7 13.859 28.5553
15.76 60.6546 28.0335
15.82 0 26.8055
15.88 20.9974 26.2614
15.94 15.1838 26.892
16 -2.5995 28.3678
16.06 15.8551 27.1034
16.12 0 23.9655
16.18 0 24.3299
16.24 -1.8367 27.0231
16.3 0 23.8773
16.36 0 23.5311
16.42 0 23.8812
16.48 0 23.998
16.54 0 23.717
16.6 0 23.7084
16.66 0 23.4665
16.72 0 23.6489
16.78 0 23.1271
16.84 0 23.4618
16.9 0 23.6019
16.96 0 23.2732
17.02 17.9141 24.005
17.08 0 23.3925
17.14 17.2575 26.6327
17.2 11.5887 26.8159
17.26 0 23.3265
17.32 -0.634482 23.3902
17.38 13.0751 23.6448
17.44 0 25.6873
17.5 0 22.8038
17.56 0 22.9126
17.62 0 22.6486
17.68 0 22.7582
17.74 0 22.8672
17.8 26.263 23.6196
17.86 0 22.3126
17.92 0 22.6677
17.98 0 22.6451
18.04 0 22.4894
18.1 0 22.4888
18.16 0 22.4214
18.22 0 22.3985
18.28 0 22.2859
18.34 18.5046 23.0573
18.4 0 21.9911
18.46 0 21.5541
18.52 0 22.3731
18.58 0 21.9209
18.64 10.6388 22.6606
18.7 0 21.4819
18.76 3.69251 22.4154
18.82 -0.187099 22.2805
18.88 -0.835871 22.2125
18.94 1.18202 23
19 5.05733 23.618
19.06 4.41048 23.8069
19.12 32.5449 23.9507
19.18 -1.85917 25.3046
19.24 6.57538 25.3728
19.3 1.2894 22.7589
19.36 4.96094 21.9813
19.42 -2.36376 21.8102
19.48 11.9478 22.1854
19.54 20.6824 24.4234
19.6 11.3749 24.9233
19.66 13.6783 24.3099
19.72 0 21.4059
19.78 31.2116 23.1794
19.84 1.91299 26.7386
19.9 20.9888 24.7413
19.96 46.8866 26.3275
20.02 12.4321 27.1708
20.08 14.747 25.5043
20.14 34.1298 26.3445
20.2 44.534 27.1066
20.26 26.1425 28.1133
20.32 47.436 26.8983
20.38 32.6274 28.2327
20.44 50.4813 28.1942
20.5 37.6335 28.1225
20.56 32.9176 28.0713
20.62 39.8617 28.0478
20.68 82.9356 28.6073
20.74 32.4595 29.9596
20.8 46.9683 28.5725
20.86 98.3177 30.497
20.92 104.69 31.9102
20.98 118.074 33.6542
21.04 114.684 33.7683
21.1 141.467 34.2715
21.16 82.0833 33.8829
21.22 131.872 33.3095
21.28 125.673 34.3855
21.34 73.6807 32.9397
21.4 56.5273 30.6196
21.46 69.5093 30.2059
21.52 2.93122 28.8522
21.58 36.8445 26.3751
21.64 11.2971 27.5244
21.7 55.2511 26.9199
21.76 14.5106 28.3126
21.82 28.2163 26.7182
21.88 25.0429 27.1808
21.94 -0.700038 22.7419
22 45.4781 25.9347
22.06 6.60903 27.7109
22.12 -0.0917891 25.3151
22.18 18.7627 24.1671
22.24 19.6605 26.575
22.3 0 25.6951
22.36 30.7096 24.8236
22.42 36.4605 27.7568
22.48 36.6287 28.3012
22.54 29.3112 28.0481
22.6 32.8252 27.7549
22.66 35.7758 27.9636
22.72 58.1127 28.6544
22.78 29.09 29.1919
22.84 75.8467 28.7572
22.9 23.585 30.1134
22.96 88.8875 28.5454
23.02 12.215 30.6063
23.08 106.462 28.0815
23.14 77.3384 32.7359
23.2 80.2029 31.5836
23.26 103.623 32.0956
23.32 125.704 33.6254
23.38 55.9194 33.1957
23.44 139.219 31.6591
23.5 65.9101 33.956
23.56 177.662 32.8636
23.62 79.89 35.6603
23.68 173.897 33.4683
23.74 158.405 37.0018
23.8 191.995 37.0478
23.86 145.933 37.4391
23.92 260.977 37.7965
23.98 267.781 41.737
24.04 299.36 42.4558
24.1 370.133 44.4569
24.16 446.038 47.547
24.22 555.753 50.9542
24.28 578.709 53.7211
24.34 601.425 54.5544
24.4 602.361 55.0778
24.46 539.296 54.2774
24.52 533.103 52.8601
24.58 497.676 52.2106
24.64 496.398 51.3
24.7 419.222 50.2522
24.76 545.779 50.2267
24.82 502.706 52.4084
24.88 577.443 52.6406
24.94 712.727 55.9837
25 833.151 60.2095
25.06 1048.45 64.7882
25.12 1146.87 69.4464
25.18 1521.1 74.9427
25.24 1861.98 83.3541
25.3 2347.51 92.0119
25.36 2744.18 100.506
25.42 2834.82 105.404
25.48 2693.98 105.719
25.54 2040.5 99.2061
25.6 1671.71 89.206
25.66 1183.86 80.0233
25.72 947.809 70.2274
25.78 653.879 62.4776
25.84 591.942 56.4605
25.9 502.878 53.4762
25.96 506.069 51.7451
26.02 338.82 49.3419
26.08 360.126 45.6269
26.14 269.479 44.666
26.2 263.229 42.4628
26.26 208.943 40.8589
26.32 191.596 38.9327
26.38 143.702 37.1856
26.44 115.999 35.5745
26.5 147.203 34.8067
26.56 90.2882 34.6349
26.62 122.572 33.1254
26.68 49.1976 32.2931
26.74 91.7575 30.7295
26.8 48.0048 31.406
26.86 89.0062 29.9974
26.92 58.5222 31.5142
26.98 48.6736 29.6428
27.04 81.3688 30.1348
27.1 15.0469 29.9406
27.16 76.3473 28.6723
27.22 18.5499 28.912
27.28 3.70605 26.881
27.34 0.0340498 24.5835
27.4 11.287 25.6013
27.46 20.788 25.7632
27.52 9.69648 26.013
27.58 36.3838 26.3108
27.64 5.00634 26.4878
27.7 9.51691 24.9161
27.76 31.5293 25.7192
27.82 1.55939 23.5029
27.88 19.166 25.4492
27.94 37.6249 26.6341
28 37.6157 27.5093
28.06 62.0665 28.5657
28.12 98.4162 31.3812
28.18 92.937 31.6442
28.24 118.901 32.8387
28.3 84.0364 32.436
28.36 80.9114 32.1331
28.42 70.3997 31.525
28.48 20.0306 29.3338
28.54 2.82751 27.4828
28.6 10.8734 26.2172
28.66 -2.23458 22.2597
28.72 13.0273 22.6079
28.78 0 22.1891
28.84 8.31223 24.3891
28.9 0 22.2227
28.96 0 22.2057
29.02 8.09169 24.8239
29.08 25.1912 24.8438
29.14 11.3507 26.6859
29.2 24.1526 25.2583
29.26 40.698 26.1245
29.32 10.5269 27.4386
29.38 1.55231 23.3681
29.44 0 21.6345
29.5 5.09817 23.9278
29.56 0 22.1709
29.62 9.34706 22.6891
29.68 22.9715 25.3712
29.74 31.2258 27.1684
29.8 -2.87895 25.3507
29.86 32.8442 24.5065
29.92 9.83945 28.0818
29.98 17.3668 26.7342
30.04 43.9407 26.015
30.1 9.19027 28.0887
30.16 -2.90872 26.0804
30.22 31.708 24.8045
30.28 0 25.3238
30.34 23.4028 23.1245
30.4 13.9996 26.1529
30.46 0 22.3882
30.52 24.0543 24.4718
30.58 6.48519 25.1254
30.64 46.148 26.0084
30.7 4.67671 28.3506
30.76 63.7631 25.0293
30.82 37.1418 28.4336
30.88 57.2885 27.2888
30.94 52.7282 28.6339
31 57.6774 29.3618
31.06 70.8341 28.9437
31.12 50.9151 30.1106
31.18 64.4647 30.5509
31.24 61.7555 29.4465
31.3 81.2376 30.3806
31.36 79.8029 31.0585
31.42 114.818 32.1573
31.48 158.673 34.1264
31.54 180.808 36.3233
31.6 146.669 36.1692
31.66 168.111 36.4578
31.72 97.5779 34.8128
31.78 97.7307 33.9342
31.84 39.8803 32.0195
31.9 23.3832 29.3824
31.96 15.3482 26.718
32.02 24.2779 27.9737
32.08 28.2627 25.1638
32.14 16.1951 27.9694
32.2 53.721 25.3021
32.26 43.1342 28.1641
32.32 61.9369 28.1641
32.38 38.6427 29.0554
32.44 102.464 32.271
32.5 74.9157 32.0679
32.56 48.2917 31.1266
32.62 119.991 31.9961
32.68 123.536 31.1688
32.74 58.7567 32.7576
32.8 129.952 31.038
32.86 97.4788 32.683
32.92 95.8435 33.2418
32.98 88.129 32.9864
33.04 115.443 30.8522
33.1 132.899 31.3741
33.16 85.9371 32.357
33.22 159.227 33.5616
33.28 127.504 34.1669
33.34 164.314 35.203
33.4 159.626 34.604
33.46 152.994 36.2601
33.52 144.763 36.2037
33.58 96.5407 36.3231
33.64 120.992 34.6856
33.7 102.724 32.3982
33.76 64.0616 30.7259
33.82 87.5009 30.7412
33.88 58.797 29.5788
33.94 39.3005 30.8141
34 72.2045 26.4719
34.06 0 28.3428
34.12 22.31 27.3813
34.18 0.709391 23.0663
34.24 -1.82131 26.757
34.3 0 22.1319
34.36 15.9681 26.7483
34.42 0 22.2389
34.48 42.6992 23.3548
34.54 9.7114 28.544
34.6 4.22282 26.0144
34.66 15.727 25.4099
34.72 36.1071 25.7892
34.78 56.9815 26.0553
34.84 23.3631 27.1136
34.9 0 22.1032
34.96 21.7155 22.8567
35.02 0 22.2103
35.08 5.14276 25.2409
35.14 10.5584 25.2925
35.2 0.728108 24.5875
35.26 -1.76627 22.2888
35.32 13.4892 24.0932
35.38 73.6047 23.9279
35.44 18.5062 25.5849
35.5 58.0221 26.551
35.56 18.9439 29.0916
35.62 55.4556 28.501
35.68 77.1418 29.7364
35.74 102.111 30.919
35.8 75.936 30.5503
35.86 69.9579 30.7664
35.92 95.1373 29.2537
35.98 83.3492 32.723
36.04 120.356 32.5857
36.1 166.638 32.7156
36.16 108.338 34.107
36.22 102.356 33.1892
36.28 136.652 32.4218
36.34 117.933 33.9041
36.4 83.642 31.5265
36.46 95.3571 32.0928
36.52 61.3746 29.9585
36.58 66.5106 30.0826
36.64 69.3057 30.9949
36.7 22.1147 28.9312
36.76 28.5442 27.2389
36.82 48.6697 28.1014
36.88 52.2569 27.1691
36.94 65.4944 29.9385
37 31.6733 27.8613
37.06 54.3493 27.2112
37.12 58.8696 27.4318
37.18 17.7509 28.0276
37.24 -0.284575 27.1873
37.3 33.9828 25.5567
37.36 25.2414 26.4087
37.42 4.21544 26.4317
37.48 39.9154 25.3302
37.54 38.6707 24.7605
37.6 60.4041 26.9078
37.66 51.9466 25.6258
37.72 10.5488 26.4847
37.78 12.6429 25.9853
37.84 39.5666 23.5622
37.9 1.56368 22.4169
37.96 0 20.8155
38.02 -0.437106 21.4194
38.08 -2.77083 21.3141
38.14 0 21.0069
38.2 -2.7718 21.3141
38.26 33.8416 22.1878
38.32 12.8408 21.7094
38.38 0 20.8157
38.44 -0.107071 21.4078
38.5 0 21.007
38.56 0 20.4522
38.62 0 20.8637
38.68 0 20.3296
38.74 0 20.9594
38.8 0.556691 21.9557
38.86 0 21.1967
38.92 0 20.9833
38.98 56.8329 22.7005
39.04 91.8321 23.4588
39.1 40.1758 28.3132
39.16 58.7455 29.2077
39.22 49.2949 27.1041
39.28 21.7623 28.294
39.34 22.4942 26.8962
39.4 7.23389 25.577
39.46 19.4318 26.1312
39.52 9.20404 24.7578
39.58 3.79673 24.3116
39.64 0 21.1023
39.7 -0.117238 21.4082
39.76 3.20288 23.4707
39.82 0 21.2911
39.88 0 21.0787
39.94 29.7844 24.6871
40 21.2299 22.6815
40.06 53.1273 25.3506
40.12 65.9862 26.4253
40.18 70.5735 28.3198
40.24 225.351 32.875
40.3 390.485 37.757
40.36 796.503 48.9739
40.42 1453.72 61.8436
40.48 2245.36 77.391
40.54 2863.74 92.8516
40.6 3108.26 103.397
40.66 3115.22 109.879
40.72 2427.54 107.091
40.78 1426.78 96.4253
40.84 859.404 81.8525
40.9 434.328 64.4173
40.96 210.472 50.4631
41.02 119.589 39.9547
41.08 87.476 34.7022
41.14 100.909 32.7142
41.2 70.9421 30.7005
41.26 41.1534 28.7616
41.32 42.5536 27.2428
41.38 22.0602 26.8779
41.44 0 25.4414
41.5 11.3161 25.2197
41.56 30.2724 23.2311
41.62 17.635 24.2858
41.68 4.85858 24.5847
41.74 0 20.76
41.8 0 20.9439
41.86 4.42602 22.3513
41.92 6.21612 24.168
41.98 0 20.5583
42.04 -2.78566 20.888
42.1 0 20.1983
42.16 0 20.4607
42.22 0 20.4526
42.28 0 20.6634
42.34 -1.67379 20.8481
42.4 0 20.4281
42.46 -1.89572 20.8081
42.52 0 20.0907
42.58 20.8235 21.338
42.64 0 20.6875
42.7 13.2108 23.9939
42.76 -2.11719 20.7197
42.82 -1.89482 20.7117
42.88 14.9418 23.8315
42.94 8.82489 20.9597
43 9.85212 23.8416
43.06 13.255 22.9062
43.12 53.9822 24.512
43.18 27.6697 23.8101
43.24 17.2268 26.0542
43.3 33.0403 25.1396
43.36 0 20.5176
43.42 10.8044 24.7401
43.48 17.9143 22.007
43.54 43.9489 23.7741
43.6 24.3341 24.1991
43.66 43.4443 26.4293
43.72 4.77304 24.6313
43.78 48.5904 26.3109
43.84 26.9469 23.4737
43.9 49.7042 26.9164
43.96 42.9496 25.7947
44.02 76.9718 28.0335
44.08 39.7095 26.5141
44.14 50.22 28.6702
44.2 106.165 28.1096
44.26 129.198 29.2222
44.32 133.177 31.8276
44.38 135.522 32.6356
44.44 162.141 33.541
44.5 211.615 34.713
44.56 267.385 36.5403
44.62 266.103 38.1624
44.68 288.336 40.332
44.74 329.322 41.2241
44.8 311.038 41.5304
44.86 229.001 41.0974
44.92 191.412 39.7715
44.98 208.264 37.8182
45.04 154.886 35.3492
45.1 122.611 35.2335
45.16 59.4314 32.0491
45.22 55.9573 30.5594
45.28 113.506 28.8774
45.34 107.069 28.4949
45.4 37.7043 29.6474
45.46 24.2766 29.0482
45.52 36.6601 25.6133
45.58 45.0601 24.7604
45.64 40.67 25.5505
45.7 23.998 25.7088
45.76 21.8798 25.3339
45.82 12.8517 23.8387
45.88 34.6317 24.1433
45.94 26.7745 23.0453
46 3.35955 24.3602
46.06 28.4491 24.2666
46.12 32.0829 21.8908
46.18 0 21.6138
46.24 -1.65198 19.4577
46.3 0 19.3632
46.36 15.6148 20.3459
46.42 23.1907 20.5905
46.48 20.4923 22.87
46.54 8.76244 23.1844
46.6 13.6754 23.2312
46.66 22.12 22.2233
46.72 0 18.7418
46.78 -0.573849 22.8126
46.84 20.1222 20.7564
46.9 5.62283 19.7862
46.96 6.60226 22.4944
47.02 14.7011 21.096
47.08 33.4233 21.8352
47.14 9.76115 22.4426
47.2 0.805021 19.629
47.26 24.3812 21.7954
47.32 0 18.4546
47.38 14.3795 23.1471
47.44 1.91927 19.8773
47.5 -0.345853 18.7786
47.56 0 18.5212
47.62 1.79056 19.7428
47.68 30.5141 20.3916
47.74 3.19731 20.4589
47.8 0 18.2379
47.86 12.8177 20.1014
47.92 22.6974 19.1683
47.98 5.25489 21.053
48.04 -2.73197 18.3906
48.1 -0.330429 18.4557
48.16 0 18.0834
48.22 0 17.6466
48.28 0 17.3147
48.34 0 18.1989
48.4 0 17.5669
48.46 0 17.6066
48.52 0 17.9831
48.58 0 18.0497
48.64 0 17.9496
48.7 0 17.1925
48.76 -1.24679 18.055
48.82 0 17.7308
48.88 0 17.572
48.94 -0.0421675 18.0049
49 23.5391 18.6166
49.06 6.14138 18.11
49.12 17.8161 21.4236
49.18 6.34583 20.1564
49.24 0 17.5261
49.3 -0.299579 17.7922
49.36 13.9238 19.7097
49.42 14.7553 18.1483
49.48 1.57171 18.6528
49.54 18.1974 21.3732
49.6 0 17.4226
49.66 11.9955 21.4052
49.72 0 17.388
49.78 -2.42057 17.4282
49.84 19.7017 18.0669
49.9 12.0344 17.8348
49.96 0.244641 17.8321
50.02 0 16.9826
50.08 -1.31188 17.3804
50.14 0.909856 18.1283
50.2 4.69739 17.5332
50.26 1.35333 18.2573
50.32 0 17.0806
50.38 0 17.0708
50.44 -0.64812 17.294
50.5 0 16.8448
50.56 1.79536 18.3057
50.62 0 16.8547
50.68 0 16.7555
50.74 1.7939 18.2476
50.8 0 17.0025
50.86 0 16.9632
50.92 0.459118 17.6637
50.98 0 16.4646
51.04 0 16.4545
51.1 0 16.9535
51.16 0 16.9141
51.22 3.9219 18.4192
51.28 12.0992 18.1809
51.34 0 16.646
51.4 16.3397 20.1051
51.46 30.6821 17.8726
51.52 11.4939 19.2829
51.58 36.3505 22.1166
51.64 54.559 21.1106
51.7 25.1042 21.7568
51.76 39.387 23.6949
51.82 55.0515 23.3859
51.88 98.8168 24.8354
51.94 88.6527 24.6294
52 99.7279 27.3761
52.06 112.333 28.2135
52.12 149.084 28.4392
52.18 136.796 28.395
52.24 127.305 29.854
52.3 86.299 28.5565
52.36 67.9604 26.8622
52.42 74.9268 26.2585
52.48 37.5017 24.4893
52.54 39.2281 23.6443
52.6 15.0852 21.6628
52.66 11.0361 23.0584
52.72 28.5987 21.0563
52.78 -0.619587 20.9521
52.84 6.65525 20.668
52.9 5.88914 19.0179
52.96 -2.00179 16.4045
53.02 13.9925 18.0878
53.08 8.66254 16.7166
53.14 -2.00324 16.3434
53.2 1.55183 17.3633
53.26 14.6604 16.8359
53.32 0 15.9094
53.38 14.5697 18.1677
53.44 6.65818 16.5362
53.5 0 16.0347
53.56 4.23217 17.4969
53.62 10.656 16.5967
53.68 0 15.9409
53.74 0 15.8044
53.8 0 15.6986
53.86 0 16.0036
53.92 3.31904 16.2722
53.98 0 15.9515
54.04 -0.677167 16.0971
54.1 1.36967 18.2558
54.16 -2.23369 15.9829
54.22 9.61956 17.569
54.28 0 15.7094
54.34 9.97626 17.1701
54.4 14.3029 17.2855
54.46 0 15.1586
54.52 0 15.4728
54.58 -1.28953 15.8756
54.64 0 15.7371
54.7 -2.78739 15.7569
54.76 -1.86966 15.7767
54.82 -0.951923 15.7964
54.88 30.9487 16.7677
54.94 9.32532 16.0865
55 0 15.4401
55.06 6.45451 19.5359
55.12 0 15.2198
55.18 4.36121 17.0925
55.24 3.20833 15.7763
55.3 -2.27671 15.5407
55.36 6.90974 16.0718
55.42 0 14.8242
55.48 0 14.9793
55.54 0 14.8662
55.6 0 15.2522
55.66 0 15.0083
55.72 0 14.9624
55.78 0 15.0498
55.84 0 15.1698
55.9 3.35096 15.516
55.96 0 14.9789
56.02 0 14.2824
56.08 0 14.4087
56.14 0 14.4995
56.2 -0.510684 15.2598
56.26 -2.25962 15.1488
56.32 -2.67521 15.1033
56.38 0 14.9242
56.44 0 14.0481
56.5 0 14.1412
56.56 0 14.9867
56.62 5.87019 15.3045
56.68 0 14.3821
56.74 0 14.6789
56.8 -1.09718 17.6679
56.86 5.63023 15.2468
56.92 0 14.8605
56.98 4.71245 16.8092
57.04 23.1266 16.5176
57.1 -0.132267 17.3618
57.16 0.0711781 17.2304
57.22 10.5684 16.965
57.28 0.694578 15.8523
57.34 0 14.8803
57.4 18.856 17.1305
57.46 12.7468 17.2603
57.52 29.8932 17.615
57.58 7.13501 18.8781
57.64 13.126 19.5811
57.7 31.6005 19.2174
57.76 17.2457 19.0143
57.82 10.2428 18.9507
57.88 44.5614 20.9652
57.94 21.2121 21.8885
58 63.0972 19.9364
58.06 41.1359 20.6471
58.12 56.1078 22.4204
58.18 38.746 21.2169
58.24 33.2376 21.9664
58.3 73.4451 22.7586
58.36 90.2781 23.6126
58.42 112.513 24.6456
58.48 107.46 27.1928
58.54 139.93 28.7507
58.6 225.138 31.5756
58.66 274.737 32.6352
58.72 343.01 35.4094
58.78 277.743 36.4819
58.84 309.625 38.896
58.9 206.04 38.1561
58.96 93.4764 34.0875
59.02 120.254 33.9134
59.08 55.5225 28.7987
59.14 74.5978 25.9559
59.2 39.9998 25.1975
59.26 26.8457 24.1145
59.32 25.5588 22.5871
59.38 42.9186 21.4673
59.44 40.755 19.6927
59.5 17.5619 20.0881
59.56 12.0671 21.1418
59.62 -2.22558 20.8957
59.68 36.0226 19.1472
59.74 25.319 18.7248
59.8 26.4523 19.4896
59.86 -1.67869 20.182
59.92 7.6686 19.4972
59.98 6.97988 19.1921
60.04 23.8291 17.4199
60.1 -1.61516 19.0287
60.16 0.0340795 16.1913
60.22 3.64285 19.5159
60.28 0 15.8817
60.34 16.8216 18.0498
60.4 0 15.9188
60.46 0 15.7638
60.52 -0.325446 16.0807
60.58 11.422 16.4524
60.64 23.3321 16.8159
60.7 1.49479 17.0435
60.76 6.34448 19.1273
60.82 -0.62505 16.0947
60.88 -0.684971 16.0975
60.94 2.78683 17.7301
61 -1.47148 16.072
61.06 6.7029 16.3524
61.12 5.79597 17.2559
61.18 -2.31791 16.0492
61.24 5.42315 17.8058
61.3 5.32908 18.4552
61.36 0 15.7113
61.42 15.4827 17.9949
61.48 3.40405 17.63
61.54 -2.49727 16.0576
61.6 -2.75168 19.188
61.66 4.91108 18.0268
61.72 23.8811 18.3011
61.78 0 15.8153
61.84 9.3983 17.7831
61.9 13.2907 19.5895
61.96 0 15.4137
62.02 0 15.7608
62.08 0 15.8815
62.14 0 15.5577
62.2 -1.84132 15.9644
62.26 0 15.3518
62.32 -2.93418 15.8903
62.38 0 15.7899
62.44 0 15.5929
62.5 4.1398 16.1233
62.56 0 15.5492
62.62 0.33368 16.3928
62.68 -2.21275 15.8562
62.74 0.574156 16.5089
62.8 0 15.7816
62.86 0 15.0955
62.92 0 15.4821
62.98 -2.27822 15.7961
63.04 -1.49132 15.822
63.1 0 15.5613
63.16 0 15.6836
63.22 10.3041 16.1802
63.28 0 15.3822
63.34 0 15.2785
63.4 0 15.4354
63.46 0 14.8684
63.52 0 15.4884
63.58 0 15.4503
63.64 -0.955604 15.7332
63.7 4.74695 15.9171
63.76 14.9544 17.2367
63.82 10.0289 17.1288
63.88 18.1543 17.8226
63.94 31.6948 19.5003
64 10.6232 18.439
64.06 0.95542 18.9842
64.12 18.0272 20.7307
64.18 30.85 19.098
64.24 42.4038 17.9721
64.3 20.0111 19.4585
64.36 22.6816 20.6802
64.42 29.1201 21.7087
64.48 49.8811 20.6284
64.54 0.0362132 19.3122
64.6 36.1529 20.9147
64.66 18.8608 21.8995
64.72 10.7904 16.0622
64.78 22.9707 21.0681
64.84 67.7265 20.9293
64.9 48.7558 19.5604
64.96 55.9573 20.9657
65.02 4.70532 22.4273
65.08 23.8296 21.8793
65.14 8.75694 21.8377
65.2 25.8034 18.2515
65.26 29.7079 20.1747
65.32 26.3621 18.4756
65.38 18.8054 19.8703
65.44 20.1476 20.3743
65.5 21.8989 19.9889
65.56 16.3259 19.4019
65.62 29.1259 19.6624
65.68 -0.448745 19.0646
65.74 19.1485 19.0014
65.8 0.58871 19.6451
65.86 21.3083 17.4758
65.92 -2.08709 18.4596
65.98 5.8467 16.8935
66.04 0.727983 18.6363
66.1 1.97416 16.3896
66.16 -0.572266 15.2629
66.22 35.7244 17.8107
66.28 21.6545 17.8706
66.34 20.5868 17.3027
66.4 0 18.2476
66.46 -1.07028 15.0898
66.52 -2.08227 18.3226
66.58 0.863849 15.7802
66.64 -0.835754 15.0116
66.7 6.19697 15.2282
66.76 0.431707 15.4763
66.82 3.72147 16.3028
66.88 -0.300831 14.918
66.94 -0.667101 14.8693
67 0 14.1294
67.06 -0.0663061 14.8389
67.12 7.09356 17.2505
67.18 -0.798845 14.7408
67.24 15.2523 15.2592
67.3 0 14.085
67.36 0 14.42
67.42 0 14.4044
67.48 7.23164 16.2816
67.54 0 14.3382
67.6 4.9559 14.7356
67.66 23.6031 17.0884
67.72 10.8571 14.874
67.78 6.87851 16.3468
67.84 7.93189 17.979
67.9 0 14.1379
67.96 1.7307 16.554
68.02 0 14.1767
68.08 1.08287 16.6226
68.14 0.674179 14.898
68.2 0 13.9509
68.26 4.59576 14.9533
68.32 18.2208 15.1973
68.38 0 13.8663
68.44 -1.16065 16.8433
68.5 0 13.8699
68.56 1.93546 15.9291
68.62 5.74597 14.2949
68.68 8.76153 14.3989
68.74 0 13.7226
68.8 2.64003 17.1038
68.86 0.538812 14.6326
68.92 0 13.8659
68.98 1.8929 15.156
69.04 5.44678 16.5268
69.1 6.87047 14.3255
69.16 1.92402 15.1623
69.22 2.39343 15.4442
69.28 0 13.681
69.34 0.621812 14.6667
69.4 -1.36781 14.005
69.46 11.9332 16.6376
69.52 0 13.8603
69.58 1.32998 14.9578
69.64 6.46829 16.5877
69.7 5.68517 15.4749
69.76 15.0417 14.5963
69.82 4.3097 17.2728
69.88 12.005 17.387
69.94 12.5977 17.4987
70 9.27437 18.5814
70.06 42.3159 17.8404
70.12 43.6697 18.7166
70.18 41.2336 18.7294
70.24 31.3217 19.468
70.3 31.6198 18.736
70.36 14.0256 20.2723
70.42 46.2724 20.8484
70.48 58.9719 19.3449
70.54 40.3827 19.4215
70.6 61.2452 21.0261
70.66 28.3255 19.8484
70.72 59.8886 20.8943
70.78 55.6362 22.1382
70.84 40.6483 20.1939
70.9 47.6615 21.5359
70.96 36.4384 22.0945
71.02 80.6296 21.8947
71.08 27.3365 21.6176
71.14 83.0432 21.9498
71.2 52.3724 22.1723
71.26 9.22909 20.3511
71.32 18.3856 21.623
71.38 31.0252 21.6066
71.44 12.6116 19.656
71.5 19.9076 19.5875
71.56 51.7399 17.3306
71.62 22.0046 18.4042
71.68 26.4692 18.6762
71.74 21.9877 20.1481
71.8 11.5204 18.5563
71.86 15.2202 19.3671
71.92 0 16.6243
71.98 17.4919 18.5103
72.04 17.0396 18.0793
72.1 26.6954 17.2911
72.16 3.43416 17.219
72.22 12.9041 18.0491
72.28 24.1372 18.5909
72.34 -0.0337248 13.5697
72.4 0 16.9203
72.46 12.3774 18.2301
72.52 7.78436 18.0281
72.58 0 17.0199
72.64 14.1513 16.9072
72.7 33.4313 17.3195
72.76 21.6992 17.9338
72.82 8.22921 17.0066
72.88 19.125 16.7982
72.94 12.3192 16.3124
73 5.50693 17.6954
73.06 30.6091 17.8461
73.12 21.9672 17.3117
73.18 34.4253 18.7843
73.24 64.1394 19.4652
73.3 81.2211 19.0444
73.36 80.1847 20.9152
73.42 137.723 23.4414
73.48 184.786 24.2929
73.54 324.842 30.2872
73.6 497.58 34.1118
73.66 704.627 39.244
73.72 886.178 44.6676
73.78 999.016 50.9406
73.84 972.087 55.381
73.9 754.155 57.5057
73.96 555.571 56.628
74.02 403.328 54.5651
74.08 246.94 50.3206
74.14 158.069 45.0512
74.2 113.786 38.6946
74.26 47.2709 32.7419
74.32 95.9109 29.0203
74.38 37.033 25.2313
74.44 56.8171 23.2559
74.5 54.4826 21.2879
74.56 46.7301 20.7618
74.62 45.9906 19.2841
74.68 9.86548 20.5362
74.74 40.4711 19.0431
74.8 4.68996 18.6963
74.86 6.99456 19.5623
74.92 27.0893 15.2329
74.98 26.5243 18.9108
75.04 15.9137 18.1768
75.1 15.6147 18.0604
75.16 17.6813 18.1306
75.22 13.4097 17.3416
75.28 6.6683 17.7581
75.34 7.9312 17.6014
75.4 5.91935 15.9618
75.46 1.8334 16.4969
75.52 14.4317 16.1809
75.58 19.0919 16.4459
75.64 1.59715 13.9934
75.7 24.8188 16.5057
75.76 -2.29209 15.5538
75.82 6.18602 15.2203
75.88 2.14595 16.11
75.94 27.1253 16.3213
76 12.0866 15.5304
76.06 24.6932 15.4928
76.12 10.6945 15.6279
76.18 -1.85629 12.84
76.24 2.99468 15.5597
76.3 -0.930278 16.0995
76.36 2.1526 14.6247
76.42 4.57994 13.0959
76.48 0 12.6653
76.54 7.76212 13.2031
76.6 0 12.6581
76.66 3.12363 14.4282
76.72 -1.99949 15.2425
76.78 0 14.7633
76.84 0.145061 13.145
76.9 1.53912 13.8268
76.96 0 12.3563
77.02 0.327248 13.2695
77.08 0 12.3489
77.14 8.57402 15.0392
77.2 -0.90875 15.3909
77.26 2.51477 14.1249
77.32 7.41065 14.3942
77.38 14.2584 15.7125
77.44 6.31825 14.4554
77.5 26.4768 14.6742
77.56 7.09145 14.6308
77.62 1.6012 13.7633
77.68 0.995267 13.5315
77.74 0 12.5098
77.8 0 12.5062
77.86 0 12.0129
77.92 1.23818 13.5986
77.98 1.96558 13.8386
78.04 -1.97369 12.6111
78.1 5.71744 14.9192
78.16 1.4811 13.6581
78.22 14.2967 14.3004
78.28 0.93589 13.4354
78.34 0 12.2304
78.4 3.00718 14.1179
78.46 0 12.3451
78.52 1.17881 13.5048
78.58 25.8593 13.6465
78.64 7.82704 14.0618
78.7 4.37628 13.6592
78.76 13.836 13.7305
78.82 0 12.1183
78.88 0 12.4001
78.94 -0.396091 12.5966
79 -0.335362 12.593
79.06 13.2158 14.34
79.12 1.7861 13.6462
79.18 1.18016 13.4264
79.24 -1.42578 12.4987
79.3 0.409678 15.1624
79.36 1.36235 13.4727
79.42 0 12.0806
79.48 -2.5162 12.4037
79.54 0.211199 12.8822
79.6 6.00773 13.4229
79.66 7.49899 12.829
79.72 0 12.2673
79.78 0 12.0164
79.84 0 12.3006
79.9 0 11.6709
79.96 0 12.2525
79.99 -0.0303645 12.495